TITLE,class,,
DATA TYPE,,,
ORIGIN,JASCO,,
OWNER,,,
DATE,21/09/28,,
TIME,16:46:07,,
SPECTROMETER/DATA SYSTEM,,,
LOCALE,1033,,
RESOLUTION,,,
DELTAX,-0.1,,
XUNITS,NANOMETERS,,
YUNITS,CD [mdeg],,
Y2UNITS,HT [V],,
Y3UNITS,ABSORBANCE,,
FIRSTX,260,,
LASTX,190,,
NPOINTS,701,,
FIRSTY,1.35162,,
MAXY,12.10479,,
MINY,-4.37448,,
XYDATA,,,
260.00,1.35,253.00,0.74
259.90,-0.10,252.93,0.74
259.80,1.06,253.07,0.74
259.70,0.49,252.91,0.74
259.60,-0.21,253.18,0.74
259.50,0.31,252.94,0.74
259.40,0.07,253.03,0.74
259.30,0.01,253.08,0.74
259.20,0.09,253.25,0.74
259.10,-0.34,253.07,0.74
259.00,0.13,252.90,0.74
258.90,0.81,253.01,0.74
258.80,0.24,253.19,0.74
258.70,-0.68,253.34,0.74
258.60,0.91,253.27,0.74
258.50,0.27,253.47,0.74
258.40,0.34,253.28,0.74
258.30,-0.30,253.43,0.74
258.20,0.21,253.40,0.74
258.10,0.61,253.24,0.74
258.00,0.84,253.27,0.74
257.90,0.39,253.41,0.74
257.80,0.81,253.46,0.74
257.70,0.13,253.34,0.74
257.60,0.28,253.54,0.74
257.50,1.55,253.59,0.75
257.40,-0.69,253.46,0.74
257.30,0.44,253.49,0.74
257.20,0.30,253.84,0.75
257.10,0.32,253.52,0.74
257.00,-0.49,253.59,0.75
256.90,0.23,253.56,0.74
256.80,0.36,253.28,0.74
256.70,0.44,253.61,0.75
256.60,0.25,253.62,0.75
256.50,-0.19,253.58,0.75
256.40,0.22,254.01,0.75
256.30,-0.87,253.75,0.75
256.20,0.31,253.77,0.75
256.10,-0.11,253.71,0.75
256.00,0.86,253.71,0.75
255.90,-0.37,253.91,0.75
255.80,0.21,254.06,0.75
255.70,1.16,254.18,0.75
255.60,0.73,253.72,0.75
255.50,1.32,254.18,0.75
255.40,-1.18,254.05,0.75
255.30,1.09,254.02,0.75
255.20,0.36,253.98,0.75
255.10,0.53,254.12,0.75
255.00,0.69,253.92,0.75
254.90,0.73,253.98,0.75
254.80,-0.13,254.30,0.75
254.70,0.17,254.01,0.75
254.60,0.27,254.17,0.75
254.50,1.39,254.36,0.75
254.40,0.55,253.98,0.75
254.30,0.60,254.28,0.75
254.20,0.36,254.31,0.75
254.10,-0.05,254.25,0.75
254.00,0.69,254.27,0.75
253.90,1.19,254.19,0.75
253.80,0.47,254.40,0.75
253.70,0.56,254.29,0.75
253.60,0.01,254.62,0.76
253.50,0.46,254.37,0.75
253.40,0.13,254.43,0.76
253.30,0.19,254.58,0.76
253.20,0.01,254.37,0.75
253.10,0.51,254.52,0.76
253.00,1.28,254.64,0.76
252.90,0.73,254.55,0.76
252.80,-1.19,254.51,0.76
252.70,1.19,254.53,0.76
252.60,0.85,254.51,0.76
252.50,0.43,254.53,0.76
252.40,0.67,254.20,0.75
252.30,0.91,254.37,0.75
252.20,0.35,255.18,0.76
252.10,0.51,254.64,0.76
252.00,0.25,254.54,0.76
251.90,1.38,254.78,0.76
251.80,-0.97,254.89,0.76
251.70,0.74,254.83,0.76
251.60,-0.32,254.51,0.76
251.50,0.20,254.70,0.76
251.40,0.10,254.62,0.76
251.30,-0.10,254.60,0.76
251.20,0.00,253.94,0.75
251.10,0.95,254.75,0.76
251.00,-0.26,254.63,0.76
250.90,0.08,254.82,0.76
250.80,0.45,254.92,0.76
250.70,1.16,255.09,0.76
250.60,0.57,254.83,0.76
250.50,0.04,254.79,0.76
250.40,0.78,254.77,0.76
250.30,0.31,254.79,0.76
250.20,0.43,254.75,0.76
250.10,0.66,254.68,0.76
250.00,1.59,254.87,0.76
249.90,-0.47,254.77,0.76
249.80,-0.15,254.91,0.76
249.70,0.00,254.70,0.76
249.60,0.50,254.76,0.76
249.50,0.19,254.79,0.76
249.40,-0.12,254.59,0.76
249.30,0.30,254.82,0.76
249.20,0.61,254.67,0.76
249.10,-0.16,254.69,0.76
249.00,0.24,254.73,0.76
248.90,0.34,254.88,0.76
248.80,0.76,254.96,0.76
248.70,0.05,254.87,0.76
248.60,0.38,255.03,0.76
248.50,-0.28,254.57,0.76
248.40,-0.84,255.07,0.76
248.30,0.59,254.73,0.76
248.20,0.53,255.13,0.76
248.10,0.65,254.71,0.76
248.00,-0.48,254.40,0.75
247.90,0.81,254.66,0.76
247.80,1.23,255.06,0.76
247.70,-0.74,254.51,0.76
247.60,-0.19,255.07,0.76
247.50,0.67,254.86,0.76
247.40,1.25,254.91,0.76
247.30,-0.13,254.98,0.76
247.20,0.75,254.93,0.76
247.10,1.56,255.30,0.77
247.00,-0.15,254.72,0.76
246.90,0.83,254.91,0.76
246.80,-0.28,254.88,0.76
246.70,-0.15,255.23,0.77
246.60,-0.34,255.37,0.77
246.50,1.26,254.80,0.76
246.40,0.59,255.16,0.76
246.30,0.61,255.37,0.77
246.20,-0.60,255.26,0.77
246.10,-0.45,254.90,0.76
246.00,0.14,255.53,0.77
245.90,1.04,255.18,0.76
245.80,0.58,255.22,0.76
245.70,1.27,255.39,0.77
245.60,0.63,255.04,0.76
245.50,-0.06,255.44,0.77
245.40,-0.74,255.28,0.77
245.30,0.61,255.15,0.76
245.20,1.38,255.06,0.76
245.10,0.43,255.00,0.76
245.00,0.06,255.04,0.76
244.90,0.30,255.40,0.77
244.80,0.35,255.15,0.76
244.70,0.61,255.59,0.77
244.60,-0.20,255.37,0.77
244.50,-0.27,255.11,0.76
244.40,0.66,255.26,0.77
244.30,0.88,255.55,0.77
244.20,0.29,255.21,0.76
244.10,-0.03,255.59,0.77
244.00,1.33,255.48,0.77
243.90,0.14,255.25,0.77
243.80,-0.15,255.50,0.77
243.70,0.46,255.55,0.77
243.60,-0.04,255.91,0.77
243.50,0.85,255.31,0.77
243.40,-0.27,255.08,0.76
243.30,0.03,255.28,0.77
243.20,0.78,255.36,0.77
243.10,0.49,255.34,0.77
243.00,0.47,255.41,0.77
242.90,-0.24,256.04,0.77
242.80,0.83,255.59,0.77
242.70,-0.29,255.62,0.77
242.60,-0.19,255.61,0.77
242.50,0.29,255.89,0.77
242.40,0.82,256.56,0.78
242.30,0.03,255.73,0.77
242.20,0.62,255.64,0.77
242.10,-0.02,256.02,0.77
242.00,0.03,255.72,0.77
241.90,-0.81,255.83,0.77
241.80,0.61,256.03,0.77
241.70,-0.56,255.91,0.77
241.60,0.20,255.91,0.77
241.50,-0.81,256.17,0.78
241.40,0.16,255.89,0.77
241.30,0.06,256.11,0.78
241.20,0.18,256.29,0.78
241.10,0.45,256.36,0.78
241.00,0.97,256.06,0.77
240.90,0.65,256.45,0.78
240.80,0.43,256.13,0.78
240.70,-0.39,256.21,0.78
240.60,0.20,256.14,0.78
240.50,0.29,256.50,0.78
240.40,0.36,256.39,0.78
240.30,-0.10,256.56,0.78
240.20,-0.03,256.52,0.78
240.10,-0.18,256.31,0.78
240.00,-0.28,256.64,0.78
239.90,0.81,256.51,0.78
239.80,0.39,256.62,0.78
239.70,0.90,256.58,0.78
239.60,-0.32,256.61,0.78
239.50,-0.14,256.84,0.78
239.40,0.71,256.73,0.78
239.30,0.55,256.83,0.78
239.20,-0.63,256.80,0.78
239.10,-0.39,256.82,0.78
239.00,0.12,256.92,0.79
238.90,-0.64,257.02,0.79
238.80,0.57,257.47,0.79
238.70,-0.52,257.23,0.79
238.60,-0.96,257.23,0.79
238.50,0.50,257.59,0.79
238.40,0.05,257.47,0.79
238.30,-0.37,257.38,0.79
238.20,-1.18,257.62,0.79
238.10,-0.33,257.53,0.79
238.00,-0.27,257.73,0.80
237.90,-1.04,257.61,0.79
237.80,0.09,257.98,0.80
237.70,-0.81,257.66,0.79
237.60,0.55,257.90,0.80
237.50,0.17,257.67,0.79
237.40,0.64,257.83,0.80
237.30,-0.41,257.73,0.80
237.20,-0.81,257.98,0.80
237.10,-1.20,257.71,0.79
237.00,-0.85,257.68,0.79
236.90,-1.23,258.05,0.80
236.80,-0.88,257.99,0.80
236.70,0.02,258.16,0.80
236.60,0.41,258.33,0.80
236.50,0.27,258.35,0.80
236.40,0.13,258.14,0.80
236.30,-0.83,258.44,0.80
236.20,-0.23,258.34,0.80
236.10,0.75,258.51,0.80
236.00,-0.14,258.78,0.81
235.90,0.53,258.82,0.81
235.80,0.40,258.64,0.81
235.70,-2.66,258.90,0.81
235.60,-0.13,258.98,0.81
235.50,-0.55,259.07,0.81
235.40,-1.24,258.94,0.81
235.30,0.03,259.10,0.81
235.20,-1.32,259.25,0.81
235.10,-0.57,259.13,0.81
235.00,-0.04,259.26,0.81
234.90,-1.63,259.12,0.81
234.80,-1.32,259.40,0.82
234.70,0.27,259.43,0.82
234.60,-1.10,259.87,0.82
234.50,-0.25,259.63,0.82
234.40,-0.57,259.57,0.82
234.30,-1.10,259.66,0.82
234.20,-1.47,259.93,0.82
234.10,-0.08,260.01,0.82
234.00,0.09,260.01,0.82
233.90,-1.13,260.25,0.83
233.80,-1.49,259.98,0.82
233.70,-0.80,259.99,0.82
233.60,-1.08,260.08,0.82
233.50,-1.22,260.33,0.83
233.40,-0.66,260.49,0.83
233.30,-0.26,260.33,0.83
233.20,-2.38,260.75,0.83
233.10,-2.10,260.74,0.83
233.00,-1.54,260.42,0.83
232.90,-0.69,260.69,0.83
232.80,-1.64,260.81,0.83
232.70,-1.29,260.96,0.83
232.60,-1.64,261.13,0.84
232.50,-1.53,260.70,0.83
232.40,-1.40,261.01,0.83
232.30,-1.55,261.44,0.84
232.20,-2.05,261.38,0.84
232.10,-1.01,261.68,0.84
232.00,-1.00,261.43,0.84
231.90,-1.35,261.68,0.84
231.80,-0.97,261.54,0.84
231.70,-1.25,261.79,0.84
231.60,-0.79,262.07,0.85
231.50,-1.76,261.98,0.85
231.40,-1.96,261.96,0.85
231.30,-1.50,261.74,0.84
231.20,-2.14,261.90,0.84
231.10,-1.22,261.67,0.84
231.00,-1.10,261.98,0.85
230.90,-2.25,262.47,0.85
230.80,-1.47,262.40,0.85
230.70,-2.26,262.32,0.85
230.60,-1.90,262.21,0.85
230.50,-3.03,262.51,0.85
230.40,-2.41,262.34,0.85
230.30,-1.86,262.44,0.85
230.20,-1.67,262.24,0.85
230.10,-1.45,262.22,0.85
230.00,-2.77,262.04,0.85
229.90,-0.85,262.10,0.85
229.80,-1.17,261.84,0.84
229.70,-1.67,261.93,0.85
229.60,-2.67,261.77,0.84
229.50,-2.11,262.22,0.85
229.40,-2.22,262.19,0.85
229.30,-1.14,262.31,0.85
229.20,-1.78,262.27,0.85
229.10,-2.26,262.68,0.85
229.00,-0.96,262.87,0.86
228.90,-1.30,263.03,0.86
228.80,-2.12,263.27,0.86
228.70,-2.10,263.23,0.86
228.60,-1.68,263.47,0.86
228.50,-2.32,263.80,0.87
228.40,-1.58,263.71,0.87
228.30,-1.56,263.85,0.87
228.20,-2.77,264.04,0.87
228.10,-1.54,264.24,0.87
228.00,-3.33,263.99,0.87
227.90,-2.12,264.75,0.88
227.80,-0.84,264.40,0.87
227.70,-2.47,264.26,0.87
227.60,-1.65,264.35,0.87
227.50,-2.50,264.87,0.88
227.40,-2.30,264.91,0.88
227.30,-1.92,264.68,0.88
227.20,-2.08,265.18,0.88
227.10,-2.50,265.07,0.88
227.00,-3.07,265.13,0.88
226.90,-2.54,265.39,0.89
226.80,-2.54,265.17,0.88
226.70,-2.92,265.06,0.88
226.60,-2.14,265.21,0.88
226.50,-2.40,265.42,0.89
226.40,-1.82,265.35,0.89
226.30,-1.82,265.53,0.89
226.20,-2.32,265.75,0.89
226.10,-2.15,265.49,0.89
226.00,-1.90,265.68,0.89
225.90,-1.48,266.08,0.89
225.80,-2.29,265.62,0.89
225.70,-2.63,265.17,0.88
225.60,-2.64,265.94,0.89
225.50,-2.45,266.25,0.90
225.40,-1.99,266.21,0.90
225.30,-3.04,266.54,0.90
225.20,-2.71,266.36,0.90
225.10,-1.71,266.20,0.90
225.00,-3.13,266.77,0.90
224.90,-3.33,266.63,0.90
224.80,-3.83,267.05,0.91
224.70,-1.73,266.89,0.90
224.60,-3.05,267.07,0.91
224.50,-3.54,267.12,0.91
224.40,-2.15,267.38,0.91
224.30,-2.47,266.86,0.90
224.20,-3.95,266.98,0.90
224.10,-3.17,267.45,0.91
224.00,-2.89,267.38,0.91
223.90,-2.66,267.21,0.91
223.80,-1.52,267.71,0.91
223.70,-3.27,267.60,0.91
223.60,-2.82,267.82,0.91
223.50,-1.90,267.93,0.92
223.40,-1.78,267.80,0.91
223.30,-3.05,267.90,0.92
223.20,-2.84,267.70,0.91
223.10,-2.81,268.00,0.92
223.00,-1.95,268.06,0.92
222.90,-3.86,268.53,0.92
222.80,-2.72,268.26,0.92
222.70,-3.08,268.64,0.92
222.60,-2.57,268.41,0.92
222.50,-1.97,268.68,0.92
222.40,-2.08,268.50,0.92
222.30,-3.67,269.03,0.93
222.20,-1.49,268.59,0.92
222.10,-3.19,268.74,0.92
222.00,-3.59,269.06,0.93
221.90,-2.51,269.17,0.93
221.80,-2.14,268.92,0.93
221.70,-3.65,268.79,0.93
221.60,-3.73,269.38,0.93
221.50,-2.89,269.34,0.93
221.40,-3.28,269.12,0.93
221.30,-2.68,269.39,0.93
221.20,-3.43,269.52,0.93
221.10,-2.32,269.36,0.93
221.00,-2.25,269.41,0.93
220.90,-4.30,269.55,0.93
220.80,-2.70,269.92,0.94
220.70,-3.59,269.93,0.94
220.60,-2.51,269.59,0.93
220.50,-3.74,269.84,0.94
220.40,-2.21,270.20,0.94
220.30,-2.65,270.53,0.95
220.20,-3.39,270.58,0.95
220.10,-3.70,270.12,0.94
220.00,-3.73,270.49,0.95
219.90,-2.96,270.54,0.95
219.80,-1.54,270.34,0.94
219.70,-2.59,270.47,0.94
219.60,-1.99,270.46,0.94
219.50,-3.71,270.46,0.94
219.40,-2.90,270.55,0.95
219.30,-3.20,270.87,0.95
219.20,-1.56,271.00,0.95
219.10,-2.01,270.86,0.95
219.00,-4.17,270.96,0.95
218.90,-2.96,270.78,0.95
218.80,-2.30,271.00,0.95
218.70,-2.54,270.94,0.95
218.60,-3.47,271.07,0.95
218.50,-1.70,271.25,0.95
218.40,-2.48,271.51,0.96
218.30,-2.30,271.33,0.95
218.20,-2.67,271.89,0.96
218.10,-2.64,271.23,0.95
218.00,-2.80,271.36,0.96
217.90,-2.81,271.55,0.96
217.80,-1.98,271.81,0.96
217.70,-2.72,271.94,0.96
217.60,-3.50,271.97,0.96
217.50,-2.14,272.10,0.96
217.40,-2.60,272.11,0.96
217.30,-3.49,272.08,0.96
217.20,-2.60,272.21,0.97
217.10,-2.84,272.50,0.97
217.00,-3.83,272.52,0.97
216.90,-3.06,272.43,0.97
216.80,-1.22,273.00,0.97
216.70,-3.50,272.93,0.97
216.60,-2.55,273.45,0.98
216.50,-2.11,272.99,0.97
216.40,-2.00,273.11,0.98
216.30,-3.15,272.78,0.97
216.20,-1.81,273.00,0.97
216.10,-2.30,273.30,0.98
216.00,-3.61,273.23,0.98
215.90,-2.54,273.17,0.98
215.80,-2.59,273.33,0.98
215.70,-1.93,273.09,0.98
215.60,-1.35,273.37,0.98
215.50,-2.55,273.39,0.98
215.40,-0.76,273.20,0.98
215.30,-4.20,273.68,0.98
215.20,-2.36,273.76,0.98
215.10,-2.56,273.83,0.98
215.00,-2.53,273.82,0.98
214.90,-2.64,273.98,0.99
214.80,-3.64,274.12,0.99
214.70,-3.36,274.16,0.99
214.60,-2.33,274.04,0.99
214.50,-2.20,274.13,0.99
214.40,-2.82,274.29,0.99
214.30,-3.73,274.17,0.99
214.20,-2.36,274.28,0.99
214.10,-2.27,274.51,0.99
214.00,-1.76,274.59,0.99
213.90,-3.38,274.55,0.99
213.80,-3.57,274.86,1.00
213.70,-1.64,274.58,0.99
213.60,-3.15,274.36,0.99
213.50,-3.31,274.72,0.99
213.40,-2.02,275.00,1.00
213.30,-2.44,274.96,1.00
213.20,-3.72,275.20,1.00
213.10,-1.36,275.09,1.00
213.00,-2.78,275.18,1.00
212.90,-2.38,275.01,1.00
212.80,-1.78,275.32,1.00
212.70,-1.89,275.48,1.00
212.60,-1.94,275.36,1.00
212.50,-2.40,275.38,1.00
212.40,-3.78,275.65,1.00
212.30,-1.71,275.61,1.00
212.20,-1.99,275.75,1.01
212.10,-2.03,276.07,1.01
212.00,-2.84,276.22,1.01
211.90,-2.93,275.94,1.01
211.80,-0.89,276.27,1.01
211.70,-3.12,276.49,1.01
211.60,-1.80,276.54,1.01
211.50,-2.64,276.72,1.02
211.40,-3.25,276.57,1.01
211.30,-2.38,276.90,1.02
211.20,-3.22,276.67,1.02
211.10,-2.50,276.47,1.01
211.00,-2.64,277.04,1.02
210.90,-3.50,276.91,1.02
210.80,-2.17,277.16,1.02
210.70,-2.69,277.16,1.02
210.60,-3.85,277.24,1.02
210.50,-1.98,277.51,1.03
210.40,-2.04,277.55,1.03
210.30,-2.90,277.77,1.03
210.20,-1.60,277.66,1.03
210.10,-1.58,277.55,1.03
210.00,-2.85,278.00,1.03
209.90,-3.87,278.11,1.03
209.80,-3.49,278.07,1.03
209.70,-2.16,278.73,1.04
209.60,-3.06,278.51,1.04
209.50,-2.72,278.54,1.04
209.40,-2.85,278.68,1.04
209.30,-3.20,278.70,1.04
209.20,-2.23,278.87,1.04
209.10,-1.98,279.16,1.04
209.00,-4.37,279.14,1.04
208.90,-3.93,279.40,1.05
208.80,-3.44,279.44,1.05
208.70,-3.26,279.41,1.05
208.60,-3.07,279.53,1.05
208.50,-3.03,279.64,1.05
208.40,-2.08,279.70,1.05
208.30,-2.34,279.83,1.05
208.20,-3.10,280.27,1.06
208.10,-3.95,280.16,1.06
208.00,-2.84,280.35,1.06
207.90,-2.04,280.46,1.06
207.80,-1.57,280.73,1.06
207.70,-2.25,280.66,1.06
207.60,-1.31,280.86,1.06
207.50,-3.29,281.06,1.07
207.40,-2.51,281.19,1.07
207.30,-2.61,281.42,1.07
207.20,-2.62,281.57,1.07
207.10,-0.83,282.00,1.08
207.00,-2.84,281.64,1.07
206.90,-2.20,281.77,1.07
206.80,-1.89,282.03,1.08
206.70,-3.10,281.77,1.07
206.60,-1.00,282.21,1.08
206.50,-1.59,282.38,1.08
206.40,-3.01,282.61,1.08
206.30,-1.07,282.67,1.08
206.20,-2.69,282.84,1.08
206.10,-2.62,282.90,1.09
206.00,-0.66,282.86,1.09
205.90,-3.26,283.36,1.09
205.80,-1.47,283.74,1.09
205.70,-0.95,283.87,1.10
205.60,-1.88,283.83,1.10
205.50,0.65,283.91,1.10
205.40,-0.51,284.22,1.10
205.30,-0.71,284.46,1.10
205.20,-2.25,284.26,1.10
205.10,-1.21,284.71,1.11
205.00,-0.63,285.13,1.11
204.90,-1.39,285.02,1.11
204.80,-1.57,285.29,1.11
204.70,-2.13,285.64,1.12
204.60,-1.43,285.59,1.12
204.50,-0.42,285.96,1.12
204.40,-1.06,285.91,1.12
204.30,-0.65,286.29,1.12
204.20,-1.16,286.77,1.13
204.10,-0.44,286.50,1.13
204.00,-0.10,286.96,1.13
203.90,-0.19,287.23,1.13
203.80,-0.47,287.39,1.14
203.70,0.12,287.55,1.14
203.60,1.42,287.57,1.14
203.50,-1.15,288.08,1.14
203.40,-0.18,288.24,1.14
203.30,-0.62,288.43,1.15
203.20,0.43,288.37,1.15
203.10,0.61,288.72,1.15
203.00,1.14,289.00,1.15
202.90,-0.19,289.10,1.15
202.80,1.91,289.30,1.16
202.70,0.83,289.64,1.16
202.60,0.52,289.83,1.16
202.50,1.91,290.19,1.17
202.40,0.44,290.48,1.17
202.30,0.07,290.43,1.17
202.20,0.69,290.48,1.17
202.10,0.64,290.55,1.17
202.00,1.13,291.26,1.18
201.90,1.46,291.60,1.18
201.80,2.99,291.80,1.18
201.70,0.96,291.84,1.18
201.60,1.55,292.13,1.19
201.50,3.31,292.36,1.19
201.40,2.99,292.54,1.19
201.30,3.56,293.19,1.20
201.20,2.09,292.98,1.20
201.10,1.14,293.69,1.20
201.00,2.34,294.54,1.21
200.90,1.28,294.21,1.21
200.80,1.98,294.22,1.21
200.70,2.14,294.50,1.21
200.60,3.03,294.54,1.21
200.50,3.62,294.57,1.21
200.40,2.93,295.14,1.22
200.30,3.80,295.33,1.22
200.20,3.27,296.13,1.23
200.10,4.73,295.95,1.23
200.00,5.03,296.23,1.23
199.90,4.20,296.71,1.24
199.80,5.19,296.77,1.24
199.70,4.81,297.08,1.24
199.60,3.83,297.25,1.24
199.50,5.15,297.34,1.24
199.40,4.66,297.35,1.24
199.30,4.81,297.69,1.25
199.20,3.11,298.12,1.25
199.10,3.52,298.10,1.25
199.00,4.66,298.55,1.26
198.90,4.47,298.57,1.26
198.80,6.30,298.98,1.26
198.70,3.56,299.40,1.26
198.60,6.14,299.52,1.27
198.50,3.35,299.61,1.27
198.40,3.99,300.01,1.27
198.30,6.02,300.29,1.27
198.20,6.37,300.49,1.28
198.10,6.62,300.85,1.28
198.00,7.63,300.88,1.28
197.90,5.49,301.16,1.28
197.80,6.98,301.77,1.29
197.70,6.51,301.84,1.29
197.60,5.84,301.94,1.29
197.50,6.34,302.10,1.29
197.40,7.45,302.44,1.30
197.30,6.32,302.75,1.30
197.20,6.67,303.00,1.30
197.10,6.67,303.40,1.31
197.00,6.71,303.55,1.31
196.90,8.04,303.75,1.31
196.80,8.12,304.26,1.32
196.70,3.95,304.38,1.32
196.60,7.12,304.82,1.32
196.50,10.54,305.11,1.32
196.40,8.55,305.25,1.33
196.30,7.63,306.00,1.33
196.20,7.32,306.46,1.34
196.10,9.13,306.75,1.34
196.00,8.11,306.69,1.34
195.90,8.83,307.27,1.35
195.80,8.78,307.57,1.35
195.70,7.37,307.95,1.35
195.60,10.38,308.54,1.36
195.50,9.27,308.65,1.36
195.40,9.47,309.15,1.37
195.30,7.19,309.46,1.37
195.20,7.84,309.66,1.37
195.10,8.55,309.90,1.37
195.00,8.53,310.26,1.38
194.90,10.97,310.82,1.38
194.80,9.23,311.09,1.39
194.70,8.04,311.35,1.39
194.60,9.87,311.93,1.40
194.50,10.62,311.85,1.39
194.40,9.96,312.48,1.40
194.30,9.66,313.09,1.41
194.20,10.45,313.59,1.41
194.10,8.34,314.04,1.42
194.00,9.58,314.94,1.43
193.90,8.82,315.19,1.43
193.80,7.96,316.16,1.44
193.70,8.98,316.86,1.45
193.60,10.62,317.30,1.45
193.50,9.33,317.74,1.45
193.40,9.62,318.40,1.46
193.30,9.17,318.90,1.47
193.20,9.73,319.47,1.47
193.10,7.52,320.11,1.48
193.00,5.78,320.93,1.49
192.90,6.34,321.41,1.49
192.80,7.18,321.91,1.50
192.70,8.80,322.60,1.50
192.60,10.04,323.72,1.51
192.50,8.08,324.78,1.52
192.40,6.14,325.55,1.53
192.30,9.15,326.38,1.54
192.20,5.81,327.29,1.55
192.10,7.69,328.00,1.56
192.00,8.69,328.72,1.56
191.90,10.58,329.64,1.57
191.80,12.10,330.34,1.58
191.70,10.11,331.22,1.59
191.60,8.45,332.23,1.60
191.50,5.52,333.26,1.61
191.40,8.82,334.48,1.62
191.30,7.04,335.23,1.63
191.20,11.53,336.46,1.64
191.10,7.77,338.23,1.66
191.00,3.97,339.15,1.66
190.90,7.72,341.14,1.68
190.80,6.50,342.39,1.69
190.70,7.18,343.90,1.71
190.60,6.16,345.22,1.72
190.50,11.64,346.52,1.73
190.40,8.74,348.09,1.75
190.30,10.36,349.30,1.76
190.20,9.01,350.74,1.77
190.10,6.65,351.80,1.78
190.00,7.77,353.45,1.80
,,,
##### Extended Information,,,
[Comments],,,
Sample name,class,,
Comment,,,
User,,,
Division,,,
Company,Saint Mary's College,,
,,,
[Detailed Information],,,
Creation date,9/28/2021 15:46,,
,,,
Data array type,Linear data array * 3,,
Horizontal axis,Wavelength [nm],,
Vertical axis(1),CD [mdeg],,
Vertical axis(2),HT [V],,
Vertical axis(3),Abs,,
Start,260 nm,,
End,190 nm,,
Data interval,0.1 nm,,
Data points,701,,
,,,
[Measurement Information],,,
Instrument name,J-1500,,
Model name,J-1500,,
Serial No.,B051061638,,
,,,
Detector,PM-539,,
Detector S/N,B051061638,,
  Lock-in amp.,X mode,,
  HT volt,Auto,,
,,,
Accessory,PTC-517,,
Accessory S/N,B026561646,,
  Temperature,23.96 C,,
  Control sensor,Holder,,
  Monitor sensor,Holder,,
,,,
Measurement date,9/28/2021 15:44,,
,,,
CD Overload detect,541,,
Photometric mode,CD, HT, Abs
Measure range,260 - 190 nm,,
Data pitch,0.1 nm,,
CD scale,20 mdeg/0.05 dOD,,
FL scale,20 mdeg/0.05 dOD,,
D.I.T.,64 msec,,
Bandwidth,1.00 nm,,
Start mode,Immediately,,
Scanning mode,Continuous,,
Scanning speed,50 nm/min,,
Baseline correction,None,,
Shutter control,Auto,,
No. of cycle,1-Jan,,
N2 Flowmeter,Manual,,
